this is a case.the appellants collectively frazer seek review of a final decision by the united states court of federal claims dismissing their complaint for lack of subject matter jurisdiction because they failed to file the complaint within the statute of limitations codified at.on appeal,the appellants concede that the complaint was not filed within the limitations period,but contend that equitable considerations preclude its dismissal.because the facts of this case fail to support the appellants claim to an equitable exception to the jurisdictional bar imposed by,we affirm.
background 
as with the other cases,the appellants seek to assert claims against the government stemming from the enactment of the financial institutions reform,recovery,and enforcement act of firrea,stat,and its implementing regulations.congress enacted firrea in response to the savings and loan crisis of the early.the circumstances surrounding this crisis in the thrift industry are by now familiar as they are elsewhere,we do not revisit them here.see united states winstar,d glendale fed.bank,fsb united states.we present only those facts pertinent to the present appeal.
the appellants are former shareholders and directors of a thrift,superior federal savings bank superior,who seek to assert a derivative action on superior behalf.in,two savings and loan associations merged to form superior.before doing so,they informed the federal home loan bank board bank board of their intention to merge,with the understanding that they would employ a purchase method of accounting in order to comply with regulatory capital requirements.this purchase method permitted them to include goodwill as part of their capital account,and to amortize it over a period.the bank board approved the proposed merger.this approval resulted in the alleged winstar contract.consistently with the terms of the alleged contract,superior recorded approximately ten million dollars of goodwill and planned to amortize it annually over a projected period.
subsequently,in congress enacted firrea.it implemented new capital requirements by,among other things,prohibiting thrifts from treating goodwill as an asset.without the ability to count goodwill,superior was unable to comply with the minimum capital maintenance requirements imposed by firrea.superior became insolvent.on august,the resolution trust corporation rtc placed superior into receivership for failure to meet firrea requirements.
on february,approximately six months before federal regulators seized superior,the thrift brought an action in the united states district court for the eastern district of texas seeking to enjoin enforcement of the new capital requirements.this action alleged,among other things,the winstar claims the appellants sought to assert before the court of federal claims,viz.that the enactment and enforcement of firrea effected a breach of contract and a fifth amendment taking.
one month after the rtc took over as receiver for superior,the rtc moved to intervene in the district court suit and to substitute itself as the plaintiff.the rtc simultaneously moved to dismiss the complaint.the district court granted rtc motions on september,dismissing the complaint with prejudice.the appellants apparently did nothing to oppose the rtc intervention and substitution as plaintiff,or the requested dismissal with prejudice.
more than six years elapsed before the appellants initiated the suit presently on appeal.they initiated this derivative suit in the court of federal claims seeking to assert superior winstar claims,on november.in the interim period between the enactment of firrea and dismissal with prejudice of superior district court suit,and the initiation of the present suit in the court of federal claims,several events took place.
first,the fdic negotiated two tolling agreements with the department of justice.the tolling agreements applied to cases in which the fdic was the receiver for thrifts that failed due to the firrea prohibition against counting goodwill as an asset.these agreements extended the statute of limitations until the winstar matter had been finalized.
second,on july,the supreme court issued its opinion in winstar.see united states winstar,d.in winstar,the supreme court affirmed the en banc determination of this court that by enacting and enforcing firrea,the government breached contracts with the thrifts at issue in that case.id.at.at.
third,on october,the appellants sent the fdic a letter,demanding that it reinstitute the cause of action against the united states for breach of contract an uncompensated taking.the fdic neither directly responded to the appellants letter,nor filed suit.
after the appellants filed the present suit on november,the government moved to dismiss the complaint as barred by the statute of limitations.the court of federal claims rejected the appellants numerous arguments that the statute of limitations should be inapplicable in this case,and granted the government motion.frazer united states,fed.cl.
the court reasoned that required the appellants to file suit within six years of the time their claim accrued.id.at.the appellants derivative claims accrued,at the latest,on february,when superior asserted those claims in district court.id.even on that late date the appellants would have had to file the present suit no later than february.because they failed to file their complaint in the court of federal claims until november,the court determined that the appellants suit was out of time.id.the court rejected their argument for equitable to the filing date of the district court suit because that suit was no longer pending.id.at.the court also rejected the argument that the government must be equitably estopped from asserting the statute of limitations defense because the appellants failed to demonstrate misleading governmental conduct on which they relied to their detriment.id.at.the court then concluded that because the appellants complaint was barred by the statute of limitations,it was beyond the court subject matter jurisdiction.id.at citing chandler united states,wl,at.
before this court,the appellants challenge the court of federal claims dismissal of their complaint.we possess jurisdiction over the appeal pursuant to a.
standard of review 
this court reviews de novo all legal determinations,including a dismissal by the court of federal claims for lack of jurisdiction.aviation training,united states,dehne united states.whether equitable principles can constitute a cognizable defense to the statute of limitations codified at is a question of law.see brice sec y of health and human,whether equitable tolling is permitted under the vaccine act is a question of law which we review de novo.
in contrast,whether equitable relief is warranted on the circumstances of a particular case involves factual determinations,such as the presence or absence of detrimental reliance,which are entitled to deference.see rhi holdings,united states,noting that if the court determined that the limitations period codified at a contained an implied equitable exception,then we would have to remand this case to the court of federal claims for further factual determinations decker west,holding that proof of detrimental reliance was necessary to avoid a time bar for failure to satisfy the day limitations period codified at,but declining to remand for fact finding regarding detrimental reliance because,even if the claim were not time barred,it would fail on the merits.we review such factual determinations for clear error.wyatt united states.
discussion 
the statute of limitations applicable to suits in the court of federal claims provides,in pertinent part 
every claim of which the united states court of federal claims has jurisdiction shall be barred unless the petition thereon is filed within six years after such claim first accrues.
the appellants they they failed to file their complaint within this limitations period.they contend,however,that this court should reverse the dismissal of their complaint based on either of two equitable theories first,that equitable to the filing date of superior district court suit should apply